\STAR_ID                                  = "HD 190228"
\DATA_CATEGORY                            = "Planet Radial Velocity Curve"
\NUMBER_OF_POINTS                         = "51"
\TIME_REFERENCE_FRAME                     = "BJD"
\MINIMUM_DATE                             = "2450652.5558"
\DATE_UNITS                               = "days"
\MAXIMUM_DATE                             = "2452598.2425"
\MINIMUM_VALUE                            = "-50289.00"
\VALUE_UNITS                              = "m/s"
\MAXIMUM_VALUE                            = "-50088.00"
\REFERENCE                                = "Perrier et al. 2003 (A&A, 410, 1039)"
\BIBCODE                                  = "2003A&A...410.1039P"
\TELESCOPE                                = "1.93m"
\INSTRUMENT                               = "ELODIE"
\WAVELENGTH_CALIBRATION_TECHNIQUE         = "Thorium Argon"
\OBSERVATORY_SITE                         = "Observatoire de Haute Provence (OHP), France"
\COLUMN_RADIAL_VELOCITY                   = "Radial velocity relative to barycenter"
\COLUMN_RADIAL_VELOCITY_UNCERTAINTY       = "Uncertainty in RADIAL_VELOCITY"
|          BJD | Radial_Velocity | Radial_Velocity_Uncertainty |
|       double |          double |                      double |
|         days |             m/s |                         m/s |
  2450652.5558         -50178.00                          7.00
  2450655.5414         -50179.00                          8.00
  2450657.5664         -50169.00                          7.00
  2451034.5097         -50110.00                          8.00
  2451037.4670         -50094.00                          8.00
  2451058.3993         -50109.00                          7.00
  2451118.2866         -50101.00                          8.00
  2451359.5657         -50275.00                          8.00
  2451391.5174         -50267.00                          8.00
  2451422.4512         -50271.00                          9.00
  2451423.4231         -50260.00                          9.00
  2451439.4051         -50257.00                         10.00
  2451466.3360         -50255.00                          8.00
  2451507.3066         -50239.00                          9.00
  2451510.2703         -50241.00                          8.00
  2451542.2333         -50215.00                         11.00
  2451543.2354         -50240.00                          9.00
  2451690.5953         -50194.00                          8.00
  2451693.5757         -50184.00                          8.00
  2451722.5837         -50175.00                          9.00
  2451727.5937         -50189.00                          8.00
  2451754.5222         -50175.00                         11.00
  2451780.4666         -50157.00                         10.00
  2451783.4688         -50166.00                         10.00
  2451802.4104         -50188.00                          8.00
  2451803.3935         -50177.00                          8.00
  2451836.3671         -50173.00                          8.00
  2451853.2656         -50171.00                          8.00
  2451900.2585         -50165.00                         14.00
  2451906.2431         -50151.00                         10.00
  2452074.5957         -50133.00                          8.00
  2452080.5503         -50128.00                          7.00
  2452081.5827         -50128.00                          8.00
  2452111.5162         -50128.00                          9.00
  2452116.4972         -50106.00                          9.00
  2452136.4752         -50108.00                          8.00
  2452158.4543         -50114.00                         10.00
  2452161.3028         -50110.00                          8.00
  2452164.3229         -50105.00                         10.00
  2452194.3634         -50106.00                          7.00
  2452196.3688         -50088.00                          8.00
  2452216.3246         -50095.00                          8.00
  2452220.3234         -50094.00                         11.00
  2452220.3366         -50098.00                         13.00
  2452247.2426         -50096.00                          9.00
  2452251.2638         -50109.00                          9.00
  2452458.5758         -50289.00                          9.00
  2452482.5438         -50269.00                          8.00
  2452532.3720         -50269.00                          8.00
  2452533.4005         -50268.00                          9.00
  2452598.2425         -50265.00                          8.00
