\STAR_ID                                  = "55 Cnc"
\DATA_CATEGORY                            = "Planet Radial Velocity Curve"
\NUMBER_OF_POINTS                         = "70"
\TIME_REFERENCE_FRAME                     = "JD"
\MINIMUM_DATE                             = "12219.138"
\DATE_UNITS                               = "days"
\MAXIMUM_DATE                             = "14255.737"
\MINIMUM_VALUE                            = "-100.02"
\VALUE_UNITS                              = "m/s"
\MAXIMUM_VALUE                            = "107.05"
\REFERENCE                                = "Fischer et al. 2008 (ApJ, 675, 790)"
\BIBCODE                                  = "2008ApJ...675..790F"
\TELESCOPE                                = "10m Keck I"
\INSTRUMENT                               = "HIRES"
\WAVELENGTH_CALIBRATION_TECHNIQUE         = "Iodine"
\OBSERVATORY_SITE                         = "Mauna Kea, Hawaii"
\COLUMN_JD                                = "Julian date of observation"
\COLUMN_RADIAL_VELOCITY                   = "Radial velocity relative to barycenter"
\COLUMN_RADIAL_VELOCITY_UNCERTAINTY       = "Uncertainty in RADIAL_VELOCITY"
|        JD | Radial_Velocity | Radial_Velocity_Uncertainty |
|    double |          double |                      double |
|      days |             m/s |                         m/s |
  12219.138           -100.02                           1.1
  12236.015            -17.49                           1.2
  12243.051            -10.93                           1.2
  12307.850            -63.90                           1.3
  12333.998            -95.14                           1.5
  12334.893            -97.07                           1.3
  12573.113            -21.26                           1.2
  12574.129             -3.16                           1.3
  12576.098             33.25                           1.4
  12601.031            -43.32                           1.2
  12602.059            -16.34                           1.3
  12603.114             16.66                           1.2
  12652.973            -30.59                           1.4
  12654.039            -56.44                           1.5
  12680.970             12.03                           1.3
  12682.951            -40.90                           1.4
  12711.767            -35.14                           1.4
  12712.826            -63.24                           1.4
  12777.806             -8.69                           1.2
  12804.745            -83.76                           1.5
  12988.038             36.68                           1.3
  13017.861             24.30                           1.2
  13045.782             65.13                           1.2
  13077.042             23.19                           1.4
  13339.044             73.35                           0.6
  13369.916             29.34                           0.6
  13425.843             68.86                           0.5
  13480.821             -7.05                           0.5
  13546.764              8.19                           0.6
  13547.741            -31.70                           0.5
  13692.982             15.81                           0.5
  13693.078             18.46                           0.5
  13694.081             -2.29                           0.5
  13695.050            -38.22                           0.5
  13696.026            -53.52                           0.5
  13697.109            -61.26                           0.8
  13724.055            -39.49                           0.4
  13724.995            -53.41                           0.5
  13747.026             83.06                           0.5
  13747.958             93.83                           0.6
  13748.924             86.91                           0.5
  13749.859             83.05                           0.5
  13750.865             66.56                           0.6
  13751.931             22.59                           0.9
  13752.973              4.51                           0.6
  13753.944            -30.54                           0.6
  13775.922             63.46                           0.6
  13776.940             70.26                           0.7
  13778.020             86.25                           0.6
  13806.890             90.76                           0.6
  13837.810             92.78                           0.6
  13841.801            -23.39                           0.6
  14083.982             83.79                           0.5
  14084.907             96.88                           0.5
  14085.122            107.05                           0.5
  14086.103             96.67                           0.5
  14108.908             -5.61                           0.5
  14129.901            103.38                           0.5
  14130.948             92.76                           0.4
  14131.880             59.00                           0.5
  14138.840              8.49                           0.4
  14139.050             14.26                           0.4
  14216.775            101.01                           0.7
  14246.783            101.19                           0.6
  14247.816             96.86                           0.6
  14248.793             77.92                           0.6
  14249.783             40.06                           0.7
  14250.788             18.79                           0.6
  14251.791            -12.26                           0.6
  14255.737            -19.78                           0.6
