\STAR_ID='HD 128167'
\DATA_CATEGORY='Planet Radial Velocity Curve'
\NUMBER_OF_POINTS='36'
\TIME_REFERENCE_FRAME='HJD'
\MINIMUM_DATE='2449767.0503'
\DATE_UNITS='days'
\MAXIMUM_DATE='2454606.80713'
\MINIMUM_VALUE='-73.9300003'
\VALUE_UNITS='m/s'
\MAXIMUM_VALUE='226.3200073'
\REFERENCE='Howard & Fulton, 2016'
\BIBCODE='2016arXiv160603134H'
\TELESCOPE='3.0m Shane'
\INSTRUMENT='l: Hamilton Spectrograph post-dewar 16 (after November 1994)'
\WAVELENGTH_CALIBRATION_TECHNIQUE='Iodine'
\OBSERVATORY_SITE='Lick Observatory, California'
\COLUMN_RADIAL_VELOCITY='Relative radial velocity'
\COLUMN_RADIAL_VELOCITY_UNCERTAINTY='Uncertainty in RADIAL_VELOCITY'
|          HJD|Radial_Velocity|Radial_Velocity_Uncertainty|
|       double|         double|                     double|
|         days|          m / s|                      m / s|
|         null|           null|                       null|
  2449767.0503       5.1300001                  14.8799992 
 2449801.93492     -17.9452744                    6.021749 
  2449859.7793     -73.9300003                   8.1000004 
 2450129.07812     -23.3199997                   6.4499998 
 2450172.96846     -43.9965858                   5.9060755 
 2450186.88119     -66.4286499                   5.1611676 
 2450199.86733      -6.3565745                   5.0272756 
 2450215.76416      -7.2349997                   5.0487423 
 2450262.70801     -34.1599998                   7.3400002 
 2450504.95312            -1.8                        7.71 
 2450640.73144      16.3899994                   9.6700001 
 2450656.73926     -38.2999992                  10.5299997 
  2450854.9668     226.3200073                  68.8199997 
 2450978.78809     -27.8199997                   8.2299995 
 2452042.80458      -5.3364935                     5.50425 
  2452738.9108     -23.3173008                   5.1087546 
 2452795.70068      40.6029701                   4.5297675 
 2453118.84094      82.4427795                   6.3974395 
 2453130.85547     -17.4300003                        6.79 
 2453131.80078      57.2700005                   7.0000005 
 2453155.81738      73.2399979                   7.2700005 
 2453391.05959      30.4249439                   5.1895647 
 2453407.06639       9.3325987                   5.7618661 
 2453438.03663        3.565675                   5.5061812 
  2453438.9981     -19.9755096                   5.4657388 
  2453440.9451       -0.849916                   5.2941909 
 2453442.01242      45.3095131                   5.3345265 
 2453474.89346     -36.1126213                   5.4652634 
 2453475.84773      15.4967079                   5.3039021 
 2453514.76127           75.75                   7.3699994 
 2453869.82839      14.4879818                   5.4250541 
 2454135.99885       4.0631037                   4.9752345 
  2454166.0047      49.0099983                   6.9899998 
 2454219.85208     -20.9874763                   5.4115524 
  2454220.8645      -4.9073973                   4.8089099 
 2454606.80713      57.1500015                   6.5900002 
