\STAR_ID                                  = "HD 41004A"
\DATA_CATEGORY                            = "Planet Radial Velocity Curve"
\NUMBER_OF_POINTS                         = "86"
\TIME_REFERENCE_FRAME                     = "BJD"
\MINIMUM_DATE                             = "2451902.774320"
\DATE_UNITS                               = "days"
\MAXIMUM_DATE                             = "2452323.630916"
\MINIMUM_VALUE                            = "42465.50"
\VALUE_UNITS                              = "m/s"
\MAXIMUM_VALUE                            = "42608.90"
\REFERENCE                                = "Santos et al. 2002 (A&A, 392, 215)"
\BIBCODE                                  = "2002A&A...392..215S"
\TELESCOPE                                = "1.2m Euler Swiss telescope"
\INSTRUMENT                               = "CORALIE"
\WAVELENGTH_CALIBRATION_TECHNIQUE         = "Thorium Argon"
\OBSERVATORY_SITE                         = "ESO La Silla, Chile"
\COLUMN_RADIAL_VELOCITY                   = "Radial velocity relative to barycenter"
\COLUMN_RADIAL_VELOCITY_UNCERTAINTY       = "Uncertainty in RADIAL_VELOCITY"
|            BJD | Radial_Velocity | Radial_Velocity_Uncertainty |
|         double |          double |                      double |
|           days |             m/s |                         m/s |
  2451902.774320          42511.70                          5.00
  2452222.812277          42553.50                          7.00
  2452223.805296          42480.30                          6.00
  2452224.669006          42515.70                          5.00
  2452224.862459          42472.70                          5.00
  2452225.660554          42569.10                          5.00
  2452225.867410          42552.00                          4.00
  2452226.645029          42507.50                          6.00
  2452226.868622          42568.90                          6.00
  2452249.684940          42563.40                          5.00
  2452249.841110          42541.60                          6.00
  2452250.705272          42556.60                          4.00
  2452250.840134          42582.80                          5.00
  2452251.578473          42496.30                          5.00
  2452251.847410          42512.40                          6.00
  2452252.561524          42532.40                          5.00
  2452252.852510          42486.90                          5.00
  2452253.588047          42568.20                          6.00
  2452253.836359          42559.70                          5.00
  2452255.575350          42513.00                          7.00
  2452255.854437          42512.20                          7.00
  2452256.621594          42518.40                          5.00
  2452256.828701          42465.50                          5.00
  2452257.638276          42570.40                          5.00
  2452257.827803          42550.40                          5.00
  2452258.596880          42549.30                          4.00
  2452258.834971          42570.10                          5.00
  2452259.598770          42476.50                          4.00
  2452259.817069          42509.90                          9.00
  2452260.717905          42483.10                          5.00
  2452261.605395          42563.00                          4.00
  2452261.783937          42561.20                          4.00
  2452262.624239          42539.30                          5.00
  2452263.664680          42483.90                          5.00
  2452263.796312          42490.00                          5.00
  2452264.638766          42497.80                          4.00
  2452264.814750          42485.60                          5.00
  2452265.576023          42601.80                          6.00
  2452265.770953          42547.70                          5.00
  2452266.579946          42540.10                          5.00
  2452266.809899          42598.30                          7.00
  2452268.704677          42489.30                          5.00
  2452269.663251          42574.30                          6.00
  2452269.803135          42535.30                          4.00
  2452270.630436          42544.40                          5.00
  2452270.801268          42567.60                          5.00
  2452271.628152          42492.20                          4.00
  2452288.685418          42493.00                          4.00
  2452289.548231          42608.90                          8.00
  2452289.860438          42513.50                          6.00
  2452290.593020          42563.40                          7.00
  2452290.849684          42604.00                          6.00
  2452291.560380          42493.00                          8.00
  2452291.856429          42564.50                          7.00
  2452292.554254          42501.20                         10.00
  2452292.850720          42512.90                          6.00
  2452293.554077          42581.60                          7.00
  2452293.821307          42504.00                          8.00
  2452301.578813          42576.70                          6.00
  2452301.769052          42513.10                          5.00
  2452302.584430          42574.70                          6.00
  2452302.763061          42591.80                          5.00
  2452303.576841          42501.50                          6.00
  2452303.753030          42535.70                          7.00
  2452304.554819          42506.90                          7.00
  2452304.747859          42491.10                          7.00
  2452305.576245          42571.20                          5.00
  2452305.746033          42514.70                          5.00
  2452306.583215          42580.50                          5.00
  2452306.741742          42591.90                          5.00
  2452307.743549          42546.10                          5.00
  2452308.574526          42510.10                          6.00
  2452308.699269          42488.40                          4.00
  2452309.609203          42556.20                          4.00
  2452309.755230          42503.50                          5.00
  2452310.621738          42595.30                          4.00
  2452310.734999          42596.80                          5.00
  2452311.655152          42537.30                          5.00
  2452311.780878          42575.00                          7.00
  2452312.721979          42483.80                          5.00
  2452320.540338          42510.10                          5.00
  2452321.580531          42553.20                          4.00
  2452321.678850          42528.20                          5.00
  2452322.569382          42595.80                          6.00
  2452322.682631          42579.50                          5.00
  2452323.630916          42540.10                          4.00
