\STAR_ID                                  = "HD 75289"
\DATA_CATEGORY                            = "Planet Radial Velocity Curve"
\NUMBER_OF_POINTS                         = "88"
\TIME_REFERENCE_FRAME                     = "BJD"
\MINIMUM_DATE                             = "2451130.840474"
\DATE_UNITS                               = "days"
\MAXIMUM_DATE                             = "2451465.862025"
\MINIMUM_VALUE                            = "9185.00"
\VALUE_UNITS                              = "m/s"
\MAXIMUM_VALUE                            = "9327.00"
\REFERENCE                                = "Udry et al. 2000 (A&A, 356, 590)"
\BIBCODE                                  = "2000A&A...356..590U"
\TELESCOPE                                = "1.2m Euler Swiss telescope"
\INSTRUMENT                               = "CORALIE"
\WAVELENGTH_CALIBRATION_TECHNIQUE         = "Thorium Argon"
\OBSERVATORY_SITE                         = "ESO La Silla, Chile"
\COLUMN_RADIAL_VELOCITY                   = "Radial velocity relative to barycenter"
\COLUMN_RADIAL_VELOCITY_UNCERTAINTY       = "Uncertainty in RADIAL_VELOCITY"
|            BJD | Radial_Velocity | Radial_Velocity_Uncertainty |
|         double |          double |                      double |
|           days |             m/s |                         m/s |
  2451130.840474           9312.00                         10.00
  2451135.830956           9219.00                          9.00
  2451138.743224           9254.00                         10.00
  2451139.745630           9203.00                          9.00
  2451139.849744           9219.00                          9.00
  2451140.741970           9292.00                          9.00
  2451140.858423           9302.00                         10.00
  2451141.730532           9299.00                         11.00
  2451141.857877           9288.00                          8.00
  2451142.670237           9215.00                         11.00
  2451142.859704           9221.00                          9.00
  2451143.704473           9227.00                         10.00
  2451143.860790           9248.00                          8.00
  2451148.825847           9291.00                          9.00
  2451149.814189           9199.00                          9.00
  2451150.833574           9251.00                          9.00
  2451153.775207           9218.00                         11.00
  2451154.821387           9284.00                         10.00
  2451155.817599           9290.00                          9.00
  2451156.803625           9211.00                          9.00
  2451157.763168           9229.00                          9.00
  2451158.786915           9303.00                         10.00
  2451159.850306           9238.00                         11.00
  2451160.794222           9210.00                          9.00
  2451161.767329           9259.00                         10.00
  2451162.776226           9289.00                          8.00
  2451174.569854           9188.00                         11.00
  2451175.543743           9245.00                         11.00
  2451176.556892           9318.00                          9.00
  2451178.546857           9185.00                         13.00
  2451183.709261           9310.00                          9.00
  2451183.870402           9302.00                          9.00
  2451184.674151           9234.00                          9.00
  2451184.802143           9215.00                         10.00
  2451184.855363           9201.00                          8.00
  2451186.702650           9304.00                          8.00
  2451186.783521           9307.00                          8.00
  2451186.879254           9327.00                          9.00
  2451187.775737           9263.00                          8.00
  2451187.846353           9251.00                          8.00
  2451188.692926           9207.00                          8.00
  2451189.677513           9264.00                          8.00
  2451189.768767           9273.00                          8.00
  2451189.854267           9272.00                          8.00
  2451190.679357           9303.00                          8.00
  2451190.775449           9309.00                          8.00
  2451190.852338           9304.00                          8.00
  2451191.671894           9226.00                          8.00
  2451191.768703           9221.00                          8.00
  2451191.863001           9210.00                          8.00
  2451192.662081           9222.00                          8.00
  2451192.863142           9236.00                          8.00
  2451193.664536           9300.00                          8.00
  2451193.868548           9303.00                          9.00
  2451194.666747           9272.00                          8.00
  2451194.760883           9259.00                         11.00
  2451194.845087           9259.00                          8.00
  2451196.664466           9270.00                          9.00
  2451196.747559           9264.00                          9.00
  2451196.844541           9282.00                          9.00
  2451197.658480           9318.00                          8.00
  2451197.853892           9310.00                          9.00
  2451198.755853           9230.00                          9.00
  2451199.654701           9227.00                          9.00
  2451199.746405           9241.00                          9.00
  2451199.854973           9244.00                          9.00
  2451200.636768           9310.00                          9.00
  2451200.713749           9311.00                         10.00
  2451200.805893           9310.00                          9.00
  2451247.632794           9248.00                          8.00
  2451248.587202           9203.00                          8.00
  2451248.681656           9214.00                          8.00
  2451251.615718           9203.00                          8.00
  2451252.616556           9250.00                          8.00
  2451252.725617           9251.00                          8.00
  2451285.485595           9297.00                          8.00
  2451287.480219           9235.00                          9.00
  2451288.580725           9317.00                          9.00
  2451290.555184           9210.00                          8.00
  2451296.578255           9268.00                          8.00
  2451297.559770           9202.00                          8.00
  2451298.556110           9282.00                          8.00
  2451302.521374           9308.00                          8.00
  2451308.492708           9213.00                          8.00
  2451454.895948           9232.00                          9.00
  2451458.881421           9212.00                         11.00
  2451464.862170           9284.00                          9.00
  2451465.862025           9208.00                          8.00
