\STAR_ID                                  = "HD 114386"
\DATA_CATEGORY                            = "Planet Radial Velocity Curve"
\NUMBER_OF_POINTS                         = "58"
\TIME_REFERENCE_FRAME                     = "BJD"
\MINIMUM_DATE                             = "2451246.7886"
\DATE_UNITS                               = "days"
\MAXIMUM_DATE                             = "2452796.6136"
\MINIMUM_VALUE                            = "33315.00"
\VALUE_UNITS                              = "m/s"
\MAXIMUM_VALUE                            = "33430.00"
\REFERENCE                                = "Mayor et al. 2004 (A&A, 415, 391)"
\BIBCODE                                  = "2004A&A...415..391M"
\TELESCOPE                                = "1.2m Euler Swiss telescope"
\INSTRUMENT                               = "CORALIE"
\WAVELENGTH_CALIBRATION_TECHNIQUE         = "Thorium Argon"
\OBSERVATORY_SITE                         = "ESO La Silla, Chile"
\COLUMN_RADIAL_VELOCITY                   = "Radial velocity relative to barycenter"
\COLUMN_RADIAL_VELOCITY_UNCERTAINTY       = "Uncertainty in RADIAL_VELOCITY"
|          BJD | Radial_Velocity | Radial_Velocity_Uncertainty |
|       double |          double |                      double |
|         days |             m/s |                         m/s |
  2451246.7886          33358.00                          8.00
  2451255.8151          33343.00                          8.00
  2451287.6535          33337.00                          9.00
  2451287.6657          33347.00                          9.00
  2451383.5110          33356.00                          9.00
  2451383.5231          33369.00                          9.00
  2451619.8094          33409.00                          6.00
  2451642.7057          33396.00                          5.00
  2451677.6773          33400.00                          8.00
  2451677.6905          33384.00                          7.00
  2451692.5743          33389.00                          9.00
  2451700.5591          33392.00                          7.00
  2451752.4829          33397.00                         10.00
  2451759.4955          33353.00                          7.00
  2451956.8561          33349.00                          6.00
  2451967.8203          33359.00                          8.00
  2451968.8811          33359.00                          6.00
  2451973.8021          33367.00                          6.00
  2451976.7946          33356.00                          6.00
  2451977.8261          33361.00                          6.00
  2451979.7895          33365.00                          6.00
  2451993.7682          33358.00                          8.00
  2451996.7781          33344.00                          6.00
  2452000.7236          33353.00                          7.00
  2452001.7343          33348.00                          8.00
  2452005.7762          33372.00                         10.00
  2452047.6463          33339.00                          8.00
  2452049.5541          33326.00                          8.00
  2452051.6820          33355.00                         12.00
  2452051.6974          33361.00                         11.00
  2452053.5856          33324.00                          8.00
  2452054.6091          33352.00                         13.00
  2452072.5236          33332.00                          6.00
  2452073.6043          33326.00                          8.00
  2452075.5795          33341.00                          8.00
  2452079.5141          33315.00                          8.00
  2452081.5704          33331.00                          6.00
  2452303.8608          33370.00                          8.00
  2452309.8173          33369.00                          5.00
  2452310.8051          33379.00                          5.00
  2452311.8312          33359.00                          5.00
  2452312.8329          33367.00                          5.00
  2452317.8386          33359.00                          6.00
  2452323.8820          33372.00                          5.00
  2452324.8652          33363.00                          5.00
  2452343.8099          33383.00                          5.00
  2452373.7823          33380.00                          6.00
  2452404.6509          33392.00                          5.00
  2452406.6887          33393.00                          7.00
  2452433.5826          33413.00                          8.00
  2452435.6461          33402.00                          6.00
  2452437.6004          33390.00                          8.00
  2452439.5353          33411.00                          6.00
  2452452.5363          33389.00                         11.00
  2452452.5499          33406.00                         10.00
  2452454.5684          33430.00                          8.00
  2452712.7997          33384.00                          6.00
  2452796.6136          33371.00                          6.00
