\STAR_ID='HD 149661'
\DATA_CATEGORY='Planet Radial Velocity Curve'
\NUMBER_OF_POINTS='67'
\TIME_REFERENCE_FRAME='HJD'
\MINIMUM_DATE='2449857.87227'
\DATE_UNITS='days'
\MAXIMUM_DATE='2455312.93885'
\MINIMUM_VALUE='-31.3496037'
\VALUE_UNITS='m/s'
\MAXIMUM_VALUE='27.1499996'
\REFERENCE='Howard & Fulton, 2016'
\BIBCODE='2016arXiv160603134H'
\TELESCOPE='3.0m Shane'
\INSTRUMENT='l: Hamilton Spectrograph post-dewar 16 (after November 1994)'
\WAVELENGTH_CALIBRATION_TECHNIQUE='Iodine'
\OBSERVATORY_SITE='Lick Observatory, California'
\COLUMN_RADIAL_VELOCITY='Relative radial velocity'
\COLUMN_RADIAL_VELOCITY_UNCERTAINTY='Uncertainty in RADIAL_VELOCITY'
|          HJD|Radial_Velocity|Radial_Velocity_Uncertainty|
|       double|         double|                     double|
|         days|          m / s|                      m / s|
|         null|           null|                       null|
 2449857.87227      13.5343752                   2.4140446 
 2449894.81523       0.0590338                   1.5275481 
 2449914.81152            2.21                   2.1700001 
 2450181.93945      -3.0699999                        1.88 
 2450203.91657       -6.155705                   2.4833009 
 2450299.72168           -0.73                        2.25 
 2450504.05229      -3.3484788                   1.9815406 
 2450610.82422           -0.01                   1.9399999 
 2450614.79199       4.4699998                   2.0799999 
 2450640.76269      -3.6500001                        2.54 
 2450655.73535            0.47                   2.1099999 
 2450893.05004     -13.8599997                   2.6700001 
 2450979.82324     -10.4099998                   4.6300001 
 2451005.80273     -12.8599997                   3.0700002 
 2451044.74121           -0.07                   3.6199996 
 2451243.03223      -5.3200002                   3.0599999 
 2451303.92676      27.1499996                   2.5999997 
 2451304.88281      15.6000004                   2.4000001 
 2451305.84863           16.75                        2.73 
 2451352.78809            6.77                         3.0 
 2451353.72363            1.59                   3.3400002 
 2451402.70829        6.510839                   2.3564126 
 2451627.99316      20.6299992                   2.7500002 
 2451752.70703       6.6900001                   3.4900002 
 2452000.03613            4.02                        3.52 
 2452121.73731      13.5799999                   3.1000001 
 2452812.78307     -15.4123831                    1.691031 
 2452845.70236       19.001133                   2.8264575 
 2452845.83819      19.5070343                   2.5368352 
 2453080.03559      -1.3766886                   1.8902621 
 2453103.03223       6.8299999                        2.72 
  2453118.9207     -11.6109829                   3.0995955 
 2453131.91406      -4.3099999                   2.5599999 
 2453147.86621           -6.29                         3.0 
 2453162.83163      -7.7164211                   1.8550973 
 2453210.81152            0.74                   2.1900001 
 2453211.74609      -2.8599999                   2.0999999 
 2453212.77148      -8.3699999                   2.0799999 
 2453474.99034             0.0                   3.2399998 
 2453476.93292            1.51                   2.7500002 
 2453479.99263       5.1199999                   3.1400003 
 2453482.93329      15.7200003                        2.45 
 2453511.83637      10.7799997                   2.3599999 
 2453512.83998      10.0600004                        2.54 
 2453523.83909            6.21                        2.72 
 2453541.85546      -2.8900001                        3.97 
 2453553.77601       7.5100002                   2.8900001 
 2453554.76044       5.8499999                   3.1099999 
  2453556.7624            7.48                         3.0 
 2453561.76917       3.3699999                   3.1400003 
 2453569.72198           -4.77                   3.1500001 
 2453570.71014           -9.29                   3.5899997 
 2453774.08177      -5.0700002                        3.03 
 2453866.77715      -3.3900001                   2.3699999 
 2453867.81219           -0.46                        2.45 
 2453867.91383       7.0900002                   2.7500002 
  2453868.8506     -15.4899998                   2.1700001 
 2453965.74997      11.3800001                         3.3 
 2454220.93798      -9.6700001                   2.6700001 
 2454311.71028     -10.8599997                        2.52 
 2454549.04493           -21.5                        2.25 
 2454578.91243     -15.0299997                   2.1600001 
 2454599.88146      -5.8486233                   1.9502316 
  2454613.8585            -8.0                   3.4900002 
 2454622.87736     -31.3496037                   1.5167317 
 2454866.09025       2.7089367                    2.310164 
 2455312.93885     -10.4399996                   2.1500001 
