\STAR_ID                                  = "HD 196885"
\DATA_CATEGORY                            = "Planet Radial Velocity Curve"
\NUMBER_OF_POINTS                         = "69"
\TIME_REFERENCE_FRAME                     = "JD"
\MINIMUM_DATE                             = "2450627.585800"
\DATE_UNITS                               = "days"
\MAXIMUM_DATE                             = "2453961.412000"
\MINIMUM_VALUE                            = "-30499.00"
\VALUE_UNITS                              = "m/s"
\MAXIMUM_VALUE                            = "-30129.00"
\REFERENCE                                = "Correia et al. 2008 (A&A, 479, 271)"
\BIBCODE                                  = "2008A&A...479..271C"
\TELESCOPE                                = "1.93m"
\INSTRUMENT                               = "ELODIE"
\WAVELENGTH_CALIBRATION_TECHNIQUE         = "Thorium Argon"
\OBSERVATORY_SITE                         = "Observatoire de Haute Provence (OHP), France"
\COLUMN_JD                                = "Julian date of observation"
\COLUMN_RADIAL_VELOCITY                   = "Radial velocity relative to barycenter"
\COLUMN_RADIAL_VELOCITY_UNCERTAINTY       = "Uncertainty in RADIAL_VELOCITY"
|             JD | Radial_Velocity | Radial_Velocity_Uncertainty |
|         double |          double |                      double |
|           days |             m/s |                         m/s |
  2450627.585800         -30176.00                         10.00
  2450652.596900         -30175.00                         10.00
  2450653.532300         -30216.00                         19.00
  2450656.563400         -30183.00                          9.00
  2450657.525200         -30192.00                          9.00
  2450770.228100         -30209.00                         20.00
  2450972.564800         -30134.00                         10.00
  2451024.513400         -30147.00                          9.00
  2451056.443500         -30155.00                         11.00
  2451087.355600         -30129.00                          9.00
  2451118.310500         -30144.00                          9.00
  2451123.316900         -30155.00                         13.00
  2451357.586500         -30179.00                         15.00
  2451390.534000         -30256.00                          9.00
  2451391.529300         -30251.00                         10.00
  2451392.520900         -30268.00                          9.00
  2451417.455000         -30233.00                         10.00
  2451466.347400         -30268.00                         10.00
  2451506.300100         -30255.00                         13.00
  2451510.277700         -30257.00                         10.00
  2451687.592600         -30219.00                         10.00
  2451722.598200         -30208.00                          9.00
  2451724.602400         -30231.00                         12.00
  2451755.507600         -30242.00                         12.00
  2451781.481600         -30220.00                          8.00
  2451782.450100         -30212.00                          9.00
  2451802.428100         -30215.00                         11.00
  2451803.413500         -30226.00                         12.00
  2451835.307200         -30257.00                          9.00
  2451853.285600         -30229.00                         11.00
  2452075.583800         -30196.00                          8.00
  2452077.597000         -30195.00                         10.00
  2452111.530600         -30215.00                         10.00
  2452114.542400         -30213.00                          9.00
  2452117.480900         -30225.00                          8.00
  2452136.486800         -30217.00                          9.00
  2452139.462300         -30213.00                          9.00
  2452158.481900         -30215.00                         11.00
  2452161.317600         -30209.00                          9.00
  2452194.399500         -30219.00                          9.00
  2452197.307500         -30207.00                          8.00
  2452216.349400         -30235.00                         10.00
  2452247.256600         -30228.00                          9.00
  2452252.228200         -30233.00                         10.00
  2452458.603900         -30224.00                         10.00
  2452481.552900         -30228.00                         11.00
  2452535.469700         -30267.00                         13.00
  2452535.482500         -30256.00                         12.00
  2452537.449600         -30265.00                          9.00
  2452598.271600         -30316.00                          9.00
  2452808.593300         -30331.00                         10.00
  2452828.602000         -30350.00                          9.00
  2452854.538500         -30365.00                          9.00
  2452859.542600         -30371.00                         10.00
  2452886.412600         -30382.00                         10.00
  2452922.382800         -30329.00                         11.00
  2452926.395600         -30374.00                         10.00
  2453165.600900         -30380.00                          9.00
  2453166.585300         -30368.00                          8.00
  2453224.513500         -30351.00                         11.00
  2453225.493600         -30358.00                          9.00
  2453225.506200         -30357.00                          9.00
  2453549.605700         -30358.00                         11.00
  2453553.585000         -30346.00                         15.00
  2453576.539600         -30400.00                         14.00
  2453577.560500         -30413.00                         15.00
  2453610.484400         -30372.00                         12.00
  2453614.451000         -30369.00                         10.00
  2453961.412000         -30499.00                         18.00
