\STAR_ID                                  = "HD 142022A"
\DATA_CATEGORY                            = "Planet Radial Velocity Curve"
\NUMBER_OF_POINTS                         = "70"
\TIME_REFERENCE_FRAME                     = "BJD"
\MINIMUM_DATE                             = "2451359.59105"
\DATE_UNITS                               = "days"
\MAXIMUM_DATE                             = "2453247.66332"
\MINIMUM_VALUE                            = "-9866.00"
\VALUE_UNITS                              = "m/s"
\MAXIMUM_VALUE                            = "-9737.00"
\REFERENCE                                = "Eggenberger et al. 2006 (A&A, 447, 1159)"
\BIBCODE                                  = "2006A&A...447.1159E"
\TELESCOPE                                = "1.2m Euler Swiss telescope"
\INSTRUMENT                               = "CORALIE"
\WAVELENGTH_CALIBRATION_TECHNIQUE         = "Thorium Argon"
\OBSERVATORY_SITE                         = "ESO La Silla, Chile"
\COLUMN_RADIAL_VELOCITY                   = "Radial velocity relative to barycenter"
\COLUMN_RADIAL_VELOCITY_UNCERTAINTY       = "Uncertainty in RADIAL_VELOCITY"
|           BJD | Radial_Velocity | Radial_Velocity_Uncertainty |
|        double |          double |                      double |
|          days |             m/s |                         m/s |
  2451359.59105          -9806.00                          9.00
  2451368.58796          -9786.00                          9.00
  2451375.57590          -9789.00                          9.00
  2451375.58792          -9806.00                         10.00
  2451390.51792          -9761.00                          8.00
  2451391.50718          -9790.00                          6.00
  2451398.50924          -9783.00                          6.00
  2451398.51735          -9758.00                         15.00
  2451401.49410          -9782.00                          7.00
  2451403.50477          -9786.00                         11.00
  2451417.51113          -9784.00                          8.00
  2451418.49461          -9799.00                          7.00
  2451432.68156          -9786.00                         10.00
  2451438.49208          -9779.00                          7.00
  2451611.89263          -9759.00                         10.00
  2451619.90776          -9737.00                         11.00
  2451620.87872          -9766.00                          8.00
  2451621.85553          -9768.00                         12.00
  2451622.84160          -9790.00                         13.00
  2451623.87898          -9765.00                         13.00
  2451624.76572          -9747.00                         15.00
  2451625.76343          -9761.00                          7.00
  2451626.86550          -9761.00                          8.00
  2451627.82696          -9763.00                          8.00
  2451628.78914          -9781.00                         10.00
  2451629.79052          -9769.00                          8.00
  2451630.78562          -9758.00                          8.00
  2451631.78381          -9773.00                          7.00
  2451632.76530          -9768.00                          7.00
  2451633.76479          -9783.00                          9.00
  2451634.81052          -9760.00                         13.00
  2451635.79164          -9762.00                          9.00
  2451638.81967          -9743.00                          8.00
  2451639.70905          -9779.00                          7.00
  2451640.80372          -9743.00                         10.00
  2451641.77167          -9771.00                          9.00
  2451642.80366          -9772.00                          9.00
  2451643.84615          -9777.00                          9.00
  2451645.78100          -9777.00                          9.00
  2451646.84964          -9774.00                          8.00
  2451693.58440          -9767.00                         13.00
  2451702.66926          -9772.00                         12.00
  2451746.62435          -9765.00                         15.00
  2451754.56009          -9739.00                         10.00
  2451759.61671          -9746.00                          7.00
  2451788.52975          -9756.00                         10.00
  2451795.48251          -9767.00                         12.00
  2451983.89696          -9756.00                          6.00
  2452129.66716          -9750.00                          6.00
  2452132.59350          -9742.00                          8.00
  2452136.53265          -9767.00                          7.00
  2452137.56740          -9748.00                          7.00
  2452140.60489          -9751.00                          8.00
  2452142.52937          -9753.00                          7.00
  2452145.50618          -9754.00                          7.00
  2452150.55410          -9768.00                          6.00
  2452448.64123          -9769.00                          4.00
  2452450.66613          -9772.00                          6.00
  2452490.55425          -9773.00                          6.00
  2452495.54599          -9778.00                          6.00
  2452717.86414          -9841.00                          7.00
  2452718.82421          -9840.00                          8.00
  2452757.78364          -9866.00                          7.00
  2453098.83159          -9836.00                          5.00
  2453101.87756          -9833.00                          5.00
  2453105.83227          -9839.00                          5.00
  2453113.88443          -9828.00                          6.00
  2453170.62697          -9819.00                          9.00
  2453217.58044          -9804.00                          5.00
  2453247.66332          -9796.00                          4.00
