\STAR_ID='HD 173667'
\DATA_CATEGORY='Planet Radial Velocity Curve'
\NUMBER_OF_POINTS='56'
\TIME_REFERENCE_FRAME='HJD'
\MINIMUM_DATE='2449857.93577'
\DATE_UNITS='days'
\MAXIMUM_DATE='2455846.65194'
\MINIMUM_VALUE='-144.7056885'
\VALUE_UNITS='m/s'
\MAXIMUM_VALUE='269.3599854'
\REFERENCE='Howard & Fulton, 2016'
\BIBCODE='2016arXiv160603134H'
\TELESCOPE='3.0m Shane'
\INSTRUMENT='l: Hamilton Spectrograph post-dewar 16 (after November 1994)'
\WAVELENGTH_CALIBRATION_TECHNIQUE='Iodine'
\OBSERVATORY_SITE='Lick Observatory, California'
\COLUMN_RADIAL_VELOCITY='Relative radial velocity'
\COLUMN_RADIAL_VELOCITY_UNCERTAINTY='Uncertainty in RADIAL_VELOCITY'
|          HJD|Radial_Velocity|Radial_Velocity_Uncertainty|
|       double|         double|                     double|
|         days|          m / s|                      m / s|
|         null|           null|                       null|
 2449857.93577      16.2108479                  11.6725178 
 2449871.94808      23.0887051                   7.1659245 
 2449893.82317     -75.0306091                   7.7575374 
 2449969.66317    -144.7056885                   7.1218643 
 2450187.01758     -59.8199997                  11.1199999 
 2450200.99121     269.3599854                  11.3000002 
 2450202.99707     -24.9200001                  12.3400002 
 2450214.96663      91.6003265                  12.0814114 
 2450231.90234      85.4199982                  12.0100012 
 2450233.96875     252.2899933                  14.8900013 
 2450234.95898     -77.2200012                  11.8100004 
 2450235.90137             0.0                  11.7299995 
 2450262.86035           -8.21                   9.8100004 
 2450613.88769     -38.5299988                   9.9799995 
 2450656.84668      13.4700003                  12.3300009 
 2451044.77637     -69.6699982                  12.8300009 
     2452034.0     -16.6399994                   9.6700001 
 2452040.99477       1.9497789                   6.8317761 
 2452041.96531     -63.0494881                    7.985764 
 2452073.87401     -13.2912359                   7.6335721 
 2452075.91699     -33.4399986                   9.5799999 
 2452076.86231     -68.2099991                   9.6499996 
 2452085.85352     -65.0899963                  11.7200003 
 2452101.86035     -23.7399998                  11.0200005 
 2452122.79004     -67.9700012                  11.3500004 
  2452128.7338     -76.6200027                  12.5900002 
 2453147.96851     -26.6904964                   6.6452703 
 2453149.97852     -87.9000015                  10.3900003 
  2453150.9696       4.4680319                    6.802865 
  2453188.9059      98.8317871                    6.975698 
 2453204.84038      57.7756348                   7.6428137 
 2453210.85352          -112.5                   8.7600002 
 2453211.79004     -25.7700005                   8.5100002 
 2453212.78711            3.23                   9.4499998 
 2453215.80121     -12.4174204                   5.1088657 
 2453216.75152     -44.3126564                   7.5964923 
 2453219.79444     -63.3019295                   6.6244593 
 2453238.75225      -4.9001064                   6.7667351 
 2453239.78687     -16.9851055                   7.0703888 
 2453511.96795      41.5428162                   7.2756958 
 2453512.94181      98.5535889                   7.0880513 
 2453523.94469      47.0840836                   7.2195182 
  2453553.8185        3.275877                   7.0020237 
 2453554.79846       -1.554637                   7.3081613 
 2453557.80338      53.4421387                   7.4769292 
 2453570.77336      -2.5285463                   7.2408514 
 2453572.81083     -68.9636993                   9.9479008 
 2453866.85333      -5.6728339                   7.4470439 
 2453867.86038      38.6118774                   7.2478342 
 2453957.72462     -20.2900009                   9.0600004 
 2453958.73742      -9.5161419                   5.0408177 
 2454374.65571     -81.2399979                       10.75 
 2454597.97569      -48.729866                   7.2727895 
 2454606.94476     -55.9500008                   9.1300001 
 2455843.68109    -133.6999969                  12.3000002 
 2455846.65194     -94.0599976                  12.3000002 
